Folder: ML4pXRDs/texture_analysis/data

Note: texture_analysis/README.md
# Texture Analysis

This part of the project analyses XRD patterns to quantify the amount of texture (non-random orientation of crystallites) involved in them.
Texture changes the relative height of the peaks in the diffractogram. Therefore, the ratio of the area of the two biggest peaks 
in the diffractogram is used for quantification.

File: XRD-8 component systems.csv
;Sample1;;Sample2;;Sample3;;Sample4;;Sample5;;Sample6;;Sample7;;Sample8;;Sample9;;Sample10;;Sample11;;Sample12;;Sample13;;Sample14;;Sample15;;Sample16;;Sample17;;Sample18;;Sample19;;Sample20;;Sample21;;Sample22;;Sample23;;Sample24;;Sample25;;Sample26;;Sample27;;Sample28;;Sample29;;Sample30;;Sample31;;Sample32;;Sample33;;Sample34;;Sample35;;Sample36;;Sample37;;Sample38;;Sample39;;Sample40;;Sample41;;Sample42;;Sample43;;Sample44;;Sample45;;Sample46;;Sample47;;Sample48;;Sample49;;Sample50;;Sample51;;Sample52;;Sample53;;Sample54;;Sample55;;Sample56;;Sample57;;Sample58;;Sample59;;Sample60;;Sample61;;Sample62;;Sample63;;Sample64;;Sample65;;Sample66;;Sample67;;Sample68;;Sample69;;Sample70;;Sample71;;Sample72;;Sample73;;Sample74;;Sample75;;Sample76;;Sample77;;Sample78;;Sample79;;Sample80;;Sample81;;Sample82;;Sample83;;Sample84;;Sample85;;Sample86;;Sample87;;Sample88;;Sample89;;Sample90;;Sample91;;Sample92;;Sample93
10;3840;10;3729;10;4045;10;3300;10;4032;10;4246;10;3967;10;4300;10;3908;10;4166;10;3539;10;3566;10;3872;10;4129;10;3690;10;3654;10;3798;10;3539;10;3705;10;3715;10;3654;10;3757;10;3613;10;3647;10;3450;10;3465;10;3914;10;3668;10;3641;10;3774;10;3559;10;3395;10;3393;10;3622;10;3653;10;2960;10;3050;10;3029;10;3069;10;3445;10;2997;10;3660;10;3596;10;3524;10;3780;10;3593;10;3559;10;3486;10;3420;10;3748;10;3648;10;3706;10;3516;10;3498;10;3682;10;3616;10;3160;10;3710;10;3595;10;3669;10;3005;10;3663;10;3861;10;3461;10;3715;10;3813;10;3700;10;3537;10;3585;10;3451;10;3531;10;3463;10;3346;10;3597;10;3495;10;3586;10;3392;10;3225;10;3267;10;3454;10;3330;10;3364;10;3407;10;3244;10;3195;10;3354;10;3158;10;3319;10;3399;10;3289;10;3404;10;3296;10;3383
15.115;2659;15.115;2655;15.115;2758;15.115;2452;15.115;2646;15.115;3101;15.115;2545;15.115;2920;15.115;2758;15.115;3012;15.115;2449;15.115;2483;15.115;2598;15.115;2893;15.115;2466;15.115;2565;15.115;3011;15.115;2457;15.115;2675;15.115;3032;15.115;2469;15.115;2587;15.115;2468;15.115;2342;15.115;2476;15.115;2541;15.115;2913;15.115;2482;15.115;2632;15.115;2489;15.115;2352;15.115;2323;15.115;2605;15.115;2521;15.115;2422;15.115;1916;15.115;2412;15.115;2081;15.115;2334;15.115;2280;15.115;2233;15.115;2623;15.115;2239;15.115;2409;15.115;2440;15.115;2471;15.115;2263;15.115;2211;15.115;2464;15.115;2360;15.115;2523;15.115;2394;15.115;2450;15.115;2480;15.115;2533;15.115;2434;15.115;2362;15.115;2580;15.115;2391;15.115;2760;15.115;2227;15.115;2724;15.115;2821;15.115;2369;15.115;2416;15.115;2710;15.115;2519;15.115;2248;15.115;2428;15.115;2501;15.115;2318;15.115;2236;15.115;2331;15.115;2245;15.115;2437;15.115;2456;15.115;2360;15.115;2236;15.115;2120;15.115;2152;15.115;2214;15.115;2252;15.115;2176;15.115;1985;15.115;2322;15.115;2195;15.115;2087;15.115;2258;15.115;2232;15.115;2340;15.115;2174;15.115;2090;15.115;2133
20.23;1787;20.23;1822;20.23;1809;20.23;1808;20.23;1599;20.23;2376;20.23;1588;20.23;2057;20.23;1887;20.23;2244;20.23;1727;20.23;1880;20.23;1725;20.23;2105;20.23;1615;20.23;1837;20.23;2330;20.23;1690;20.23;1929;20.23;2444;20.23;1687;20.23;1717;20.23;1543;20.23;1546;20.23;1639;20.23;1934;20.23;2058;20.23;1471;20.23;1895;20.23;1678;20.23;1445;20.23;1549;20.23;2015;20.23;1625;20.23;1595;20.23;1162;20.23;1695;20.23;1231;20.23;1700;20.23;1370;20.23;1722;20.23;1775;20.23;1371;20.23;1630;20.23;1536;20.23;1603;20.23;1409;20.23;1398;20.23;1665;20.23;1614;20.23;1606;20.23;1480;20.23;1556;20.23;1694;20.23;1550;20.23;1579;20.23;1527;20.23;1750;20.23;1458;20.23;2079;20.23;1610;20.23;2026;20.23;1945;20.23;1531;20.23;1486;20.23;1989;20.23;1749;20.23;1466;20.23;1467;20.23;1737;20.23;1465;20.23;1511;20.23;1465;20.23;1439;20.23;1774;20.23;1562;20.23;1697;20.23;1472;20.23;1259;20.23;1335;20.23;1438;20.23;1359;20.23;1399;20.23;1242;20.23;1699;20.23;1274;20.23;1400;20.23;1454;20.23;1545;20.23;1580;20.23;1383;20.23;1284;20.23;1393
25.345;1132;25.345;1413;25.345;1164;25.345;1317;25.345;972;25.345;1984;25.345;1050;25.345;1575;25.345;1427;25.345;1775;25.345;1219;25.345;1516;25.345;1164;25.345;1621;25.345;1090;25.345;1447;25.345;1899;25.345;1153;25.345;1450;25.345;2101;25.345;1184;25.345;1257;25.345;973;25.345;1064;25.345;1179;25.345;1388;25.345;1705;25.345;1033;25.345;1435;25.345;1126;25.345;935;25.345;1213;25.345;1593;25.345;1133;25.345;957;25.345;667;25.345;1362;25.345;834;25.345;1505;25.345;837;25.345;1401;25.345;1355;25.345;885;25.345;1173;25.345;1031;25.345;1145;25.345;840;25.345;875;25.345;1317;25.345;1113;25.345;1047;25.345;876;25.345;1057;25.345;1105;25.345;994;25.345;1136;25.345;1113;25.345;1282;25.345;949;25.345;1808;25.345;1266;25.345;1657;25.345;1560;25.345;1052;25.345;944;25.345;1554;25.345;1269;25.345;974;25.345;1050;25.345;1293;25.345;993;25.345;1043;25.345;1043;25.345;913;25.345;1280;25.345;1061;25.345;1226;25.345;1047;25.345;757;25.345;869;25.345;967;25.345;882;25.345;949;25.345;760;25.345;1257;25.345;799;25.345;943;25.345;976;25.345;1067;25.345;1225;25.345;955;25.345;859;25.345;1015
30.46;1036;30.46;1527;30.46;969;30.46;1373;30.46;773;30.46;2192;30.46;850;30.46;1614;30.46;1438;30.46;1790;30.46;1410;30.46;1640;30.46;1094;30.46;1727;30.46;986;30.46;1258;30.46;2081;30.46;1118;30.46;1361;30.46;2149;30.46;1191;30.46;1255;30.46;895;30.46;1208;30.46;1232;30.46;1394;30.46;1658;30.46;837;30.46;1332;30.46;951;30.46;825;30.46;1121;30.46;1513;30.46;1027;30.46;725;30.46;562;30.46;1224;30.46;652;30.46;1351;30.46;660;30.46;1313;30.46;1096;30.46;633;30.46;935;30.46;790;30.46;1002;30.46;620;30.46;667;30.46;1127;30.46;904;30.46;1000;30.46;619;30.46;872;30.46;966;30.46;782;30.46;964;30.46;1225;30.46;1257;30.46;767;30.46;1905;30.46;1603;30.46;1661;30.46;1621;30.46;850;30.46;729;30.46;1602;30.46;1338;30.46;729;30.46;822;30.46;1299;30.46;795;30.46;970;30.46;935;30.46;736;30.46;1165;30.46;926;30.46;1146;30.46;916;30.46;594;30.46;633;30.46;821;30.46;654;30.46;706;30.46;597;30.46;1215;30.46;623;30.46;789;30.46;787;30.46;873;30.46;1105;30.46;770;30.46;643;30.46;845
35.575;811;35.575;1108;35.575;833;35.575;1136;35.575;683;35.575;1685;35.575;744;35.575;1235;35.575;1119;35.575;1477;35.575;952;35.575;1284;35.575;893;35.575;1342;35.575;770;35.575;1151;35.575;1759;35.575;913;35.575;1221;35.575;1976;35.575;922;35.575;987;35.575;676;35.575;844;35.575;984;35.575;1189;35.575;1455;35.575;739;35.575;1121;35.575;855;35.575;672;35.575;939;35.575;1371;35.575;849;35.575;617;35.575;472;35.575;1082;35.575;585;35.575;1149;35.575;518;35.575;1184;35.575;1099;35.575;579;35.575;882;35.575;678;35.575;833;35.575;469;35.575;637;35.575;974;35.575;800;35.575;856;35.575;504;35.575;716;35.575;843;35.575;627;35.575;871;35.575;806;35.575;959;35.575;622;35.575;1496;35.575;1061;35.575;1337;35.575;1336;35.575;732;35.575;631;35.575;1304;35.575;981;35.575;636;35.575;703;35.575;1085;35.575;641;35.575;872;35.575;765;35.575;608;35.575;1031;35.575;834;35.575;1048;35.575;789;35.575;486;35.575;604;35.575;650;35.575;575;35.575;656;35.575;503;35.575;1019;35.575;503;35.575;651;35.575;699;35.575;780;35.575;924;35.575;675;35.575;538;35.575;689
40.69;673;40.69;1015;40.69;712;40.69;988;40.69;510;40.69;1557;40.69;596;40.69;1112;40.69;941;40.69;1378;40.69;853;40.69;1167;40.69;706;40.69;1249;40.69;694;40.69;1016;40.69;1617;40.69;818;40.69;1084;40.69;1837;40.69;761;40.69;806;40.69;546;40.69;700;40.69;819;40.69;1025;40.69;1290;40.69;563;40.69;1034;40.69;685;40.69;622;40.69;801;40.69;1255;40.69;760;40.69;524;40.69;347;40.69;1026;40.69;430;40.69;1098;40.69;424;40.69;1091;40.69;975;40.69;423;40.69;722;40.69;522;40.69;724;40.69;381;40.69;510;40.69;865;40.69;629;40.69;701;40.69;393;40.69;661;40.69;706;40.69;537;40.69;741;40.69;699;40.69;861;40.69;536;40.69;1431;40.69;958;40.69;1297;40.69;1264;40.69;627;40.69;526;40.69;1232;40.69;920;40.69;495;40.69;617;40.69;967;40.69;562;40.69;730;40.69;622;40.69;472;40.69;939;40.69;666;40.69;908;40.69;690;40.69;376;40.69;454;40.69;551;40.69;446;40.69;538;40.69;397;40.69;990;40.69;439;40.69;572;40.69;540;40.69;706;40.69;864;40.69;552;40.69;482;40.69;577
45.805;667;45.805;1048;45.805;651;45.805;1009;45.805;506;45.805;1562;45.805;574;45.805;1101;45.805;960;45.805;1355;45.805;822;45.805;1220;45.805;632;45.805;1149;45.805;584;45.805;925;45.805;1571;45.805;762;45.805;1023;45.805;1843;45.805;757;45.805;811;45.805;532;45.805;712;45.805;815;45.805;1007;45.805;1327;45.805;570;45.805;1043;45.805;710;45.805;572;45.805;746;45.805;1255;45.805;678;45.805;441;45.805;327;45.805;1096;45.805;391;45.805;1184;45.805;359;45.805;1100;45.805;931;45.805;421;45.805;696;45.805;479;45.805;700;45.805;339;45.805;459;45.805;841;45.805;629;45.805;756;45.805;346;45.805;594;45.805;689;45.805;482;45.805;682;45.805;639;45.805;844;45.805;477;45.805;1447;45.805;954;45.805;1210;45.805;1183;45.805;618;45.805;459;45.805;1134;45.805;857;45.805;460;45.805;537;45.805;899;45.805;502;45.805;698;45.805;651;45.805;424;45.805;933;45.805;676;45.805;877;45.805;630;45.805;336;45.805;435;45.805;535;45.805;407;45.805;493;45.805;423;45.805;936;45.805;373;45.805;525;45.805;561;45.805;636;45.805;896;45.805;541;45.805;384;45.805;599
50.92;656;50.92;1157;50.92;650;50.92;920;50.92;459;50.92;1602;50.92;554;50.92;1239;50.92;943;50.92;1343;50.92;822;50.92;1208;50.92;661;50.92;1258;50.92;563;50.92;920;50.92;1679;50.92;763;50.92;1048;50.92;1823;50.92;707;50.92;814;50.92;454;50.92;662;50.92;731;50.92;969;50.92;1239;50.92;512;50.92;1010;50.92;652;50.92;532;50.92;713;50.92;1204;50.92;654;50.92;429;50.92;291;50.92;930;50.92;368;50.92;981;50.92;338;50.92;1051;50.92;877;50.92;357;50.92;648;50.92;438;50.92;643;50.92;329;50.92;463;50.92;795;50.92;565;50.92;638;50.92;333;50.92;574;50.92;611;50.92;451;50.92;629;50.92;652;50.92;785;50.92;456;50.92;1433;50.92;907;50.92;1272;50.92;1144;50.92;525;50.92;454;50.92;1110;50.92;860;50.92;411;50.92;520;50.92;876;50.92;490;50.92;688;50.92;573;50.92;394;50.92;835;50.92;659;50.92;814;50.92;597;50.92;299;50.92;386;50.92;470;50.92;358;50.92;476;50.92;366;50.92;895;50.92;323;50.92;486;50.92;500;50.92;598;50.92;786;50.92;495;50.92;348;50.92;534
56.035;578;56.035;848;56.035;623;56.035;881;56.035;394;56.035;1455;56.035;512;56.035;1057;56.035;879;56.035;1324;56.035;762;56.035;1084;56.035;528;56.035;1075;56.035;509;56.035;859;56.035;1546;56.035;684;56.035;968;56.035;1765;56.035;669;56.035;723;56.035;462;56.035;639;56.035;789;56.035;895;56.035;1176;56.035;465;56.035;968;56.035;609;56.035;493;56.035;667;56.035;1148;56.035;620;56.035;407;56.035;259;56.035;906;56.035;325;56.035;1031;56.035;304;56.035;984;56.035;866;56.035;331;56.035;629;56.035;395;56.035;618;56.035;272;56.035;423;56.035;776;56.035;543;56.035;604;56.035;289;56.035;519;56.035;607;56.035;428;56.035;623;56.035;613;56.035;762;56.035;450;56.035;1333;56.035;855;56.035;1134;56.035;1114;56.035;569;56.035;377;56.035;1063;56.035;808;56.035;392;56.035;484;56.035;909;56.035;474;56.035;667;56.035;541;56.035;390;56.035;803;56.035;586;56.035;755;56.035;583;56.035;263;56.035;354;56.035;464;56.035;337;56.035;452;56.035;359;56.035;884;56.035;304;56.035;455;56.035;477;56.035;575;56.035;794;56.035;476;56.035;324;56.035;509
60.1;530;60.1;777;60.1;559;60.1;821;60.1;360;60.1;1372;60.1;462;60.1;900;60.1;820;60.1;1224;60.1;716;60.1;1026;60.1;544;60.1;1075;60.1;498;60.1;835;60.1;1396;60.1;624;60.1;874;60.1;1684;60.1;638;60.1;673;60.1;422;60.1;605;60.1;734;60.1;896;60.1;1156;60.1;461;60.1;941;60.1;636;60.1;512;60.1;612;60.1;1097;60.1;632;60.1;397;60.1;231;60.1;878;60.1;294;60.1;919;60.1;301;60.1;932;60.1;827;60.1;287;60.1;558;60.1;378;60.1;582;60.1;270;60.1;384;60.1;778;60.1;506;60.1;600;60.1;265;60.1;467;60.1;598;60.1;397;60.1;597;60.1;548;60.1;703;60.1;383;60.1;1292;60.1;835;60.1;1157;60.1;1058;60.1;460;60.1;388;60.1;1034;60.1;767;60.1;343;60.1;411;60.1;824;60.1;457;60.1;617;60.1;535;60.1;354;60.1;768;60.1;585;60.1;784;60.1;552;60.1;230;60.1;356;60.1;402;60.1;296;60.1;408;60.1;341;60.1;819;60.1;276;60.1;418;60.1;432;60.1;555;60.1;750;60.1;420;60.1;301;60.1;478